"rt","stimulus","response","trial_type","trial_index","plugin_version","time_elapsed","task","phase","word_root","is_plural","suffix_shown","condition","subject_id","correct_word","foil_word","correct_index","correct","points_total","species","image","correct_species","is_novel","rep","dup_button_index","nup_button_index","correct_suffix","chosen_suffix","chose_nup","gulu_button_index","norl_button_index","chosen_species","chose_norl"
"4379","
    <div class=""instr-box"">
      <h1>Alien Language Study</h1>
      <p>Welcome, and thank you for taking part in this study.</p>
      <p>In this experiment, you will learn a short <strong>alien language</strong>. You will first practise the words, then learn how different alien species use them.</p>
      <p>The study takes about <strong>50–60 minutes</strong>. Please make sure you are in a quiet place and will not be interrupted.</p>
      <p>Click <strong>Continue</strong> when you are ready to begin.</p>
    </div>","0","html-button-response","0","2.1.0","4382","","","","","","","","","","","","","","","","","","","","","","","","","",""
"9301","
    <div class=""instr-box"">
      <h2>Part 1: Learning the language</h2>
      <p>You will see alien words paired with pictures of objects.</p>
      <ul>
        <li>First, <strong>memorise</strong> each word and its meaning.</li>
        <li>Then you will be tested with <strong>multiple-choice questions</strong>. Choose the correct word for each picture.</li>
        <li>You will receive feedback after each answer.</li>
      </ul>
      <p>Click <strong>Start</strong> to begin.</p>
    </div>","0","html-button-response","1","2.1.0","13684","","","","","","","","","","","","","","","","","","","","","","","","","",""
"4884","
      <div class=""trial-box"">
        <div class=""word-display"">gequzis</div>
        <img src=""images/gequzis_sing.png"" class=""stim-image"" alt=""gequzis_sing.png"">
      </div>","0","html-button-response","2","2.1.0","18569","passive_exposure","stage1","gequzis","false","null","Exposure","guapzdtayb","","","","","","","","","","","","","","","","","","",""
"3566","
      <div class=""trial-box"">
        <div class=""word-display"">neseldup</div>
        <img src=""images/nesel_plur.png"" class=""stim-image"" alt=""nesel_plur.png"">
      </div>","0","html-button-response","3","2.1.0","22136","passive_exposure","stage1","nesel","true","dup","Exposure","guapzdtayb","","","","","","","","","","","","","","","","","","",""
"5555","
      <div class=""trial-box"">
        <div class=""word-display"">sehiloddup</div>
        <img src=""images/sehilod_plur.png"" class=""stim-image"" alt=""sehilod_plur.png"">
      </div>","0","html-button-response","4","2.1.0","27692","passive_exposure","stage1","sehilod","true","dup","Exposure","guapzdtayb","","","","","","","","","","","","","","","","","","",""
"5344","
      <div class=""trial-box"">
        <div class=""word-display"">takoles</div>
        <img src=""images/takoles_sing.png"" class=""stim-image"" alt=""takoles_sing.png"">
      </div>","0","html-button-response","5","2.1.0","33037","passive_exposure","stage1","takoles","false","null","Exposure","guapzdtayb","","","","","","","","","","","","","","","","","","",""
"6723","
      <div class=""trial-box"">
        <img src=""images/gequzis_sing.png"" class=""stim-image"" alt=""gequzis_sing.png"">
        <p class=""instr-text"">Which word matches this picture?</p>
      </div>","1","html-button-response","6","2.1.0","39760","forced_choice","stage1","gequzis","false","","Exposure","guapzdtayb","gequzis","gequsiz","1","true","1","","","","","","","","","","","","","",""
"null","
        <div class=""trial-box feedback-box feedback-correct"">
          <p>✓ Correct!</p>
          <p>The correct answer was: <strong>gequzis</strong></p>
        </div>","null","html-button-response","7","2.1.0","41762","feedback","stage1","","","","Exposure","guapzdtayb","","","","","","","","","","","","","","","","","","",""
"5430","
      <div class=""trial-box"">
        <img src=""images/sehilod_plur.png"" class=""stim-image"" alt=""sehilod_plur.png"">
        <p class=""instr-text"">Which word matches this picture?</p>
      </div>","1","html-button-response","8","2.1.0","47193","forced_choice","stage1","sehilod","true","","Exposure","guapzdtayb","sehiloddup","siheloddup","1","true","2","","","","","","","","","","","","","",""
"null","
        <div class=""trial-box feedback-box feedback-correct"">
          <p>✓ Correct!</p>
          <p>The correct answer was: <strong>sehiloddup</strong></p>
        </div>","null","html-button-response","9","2.1.0","49196","feedback","stage1","","","","Exposure","guapzdtayb","","","","","","","","","","","","","","","","","","",""
"5191","
      <div class=""trial-box"">
        <img src=""images/nesel_plur.png"" class=""stim-image"" alt=""nesel_plur.png"">
        <p class=""instr-text"">Which word matches this picture?</p>
      </div>","0","html-button-response","10","2.1.0","54388","forced_choice","stage1","nesel","true","","Exposure","guapzdtayb","neseldup","nelesdup","0","true","3","","","","","","","","","","","","","",""
"1191","
        <div class=""trial-box feedback-box feedback-correct"">
          <p>✓ Correct!</p>
          <p>The correct answer was: <strong>neseldup</strong></p>
        </div>","0","html-button-response","11","2.1.0","55579","feedback","stage1","","","","Exposure","guapzdtayb","","","","","","","","","","","","","","","","","","",""
"2427","
      <div class=""trial-box"">
        <img src=""images/takoles_sing.png"" class=""stim-image"" alt=""takoles_sing.png"">
        <p class=""instr-text"">Which word matches this picture?</p>
      </div>","1","html-button-response","12","2.1.0","58007","forced_choice","stage1","takoles","false","","Exposure","guapzdtayb","takoles","katoles","1","true","4","","","","","","","","","","","","","",""
"1039","
        <div class=""trial-box feedback-box feedback-correct"">
          <p>✓ Correct!</p>
          <p>The correct answer was: <strong>takoles</strong></p>
        </div>","0","html-button-response","13","2.1.0","59047","feedback","stage1","","","","Exposure","guapzdtayb","","","","","","","","","","","","","","","","","","",""
"1962","
      <div class=""trial-box"">
        <div class=""word-display"">laniz</div>
        <img src=""images/laniz_sing.png"" class=""stim-image"" alt=""laniz_sing.png"">
      </div>","0","html-button-response","14","2.1.0","61010","passive_exposure","stage1","laniz","false","null","Exposure","guapzdtayb","","","","","","","","","","","","","","","","","","",""
"2850","
      <div class=""trial-box"">
        <div class=""word-display"">wukindup</div>
        <img src=""images/wukin_plur.png"" class=""stim-image"" alt=""wukin_plur.png"">
      </div>","0","html-button-response","15","2.1.0","63860","passive_exposure","stage1","wukin","true","dup","Exposure","guapzdtayb","","","","","","","","","","","","","","","","","","",""
"3465","
      <div class=""trial-box"">
        <div class=""word-display"">maqubdup</div>
        <img src=""images/maqub_plur.png"" class=""stim-image"" alt=""maqub_plur.png"">
      </div>","0","html-button-response","16","2.1.0","67326","passive_exposure","stage1","maqub","true","dup","Exposure","guapzdtayb","","","","","","","","","","","","","","","","","","",""
"2128","
      <div class=""trial-box"">
        <div class=""word-display"">firot</div>
        <img src=""images/firot_sing.png"" class=""stim-image"" alt=""firot_sing.png"">
      </div>","0","html-button-response","17","2.1.0","69454","passive_exposure","stage1","firot","false","null","Exposure","guapzdtayb","","","","","","","","","","","","","","","","","","",""
"3348","
      <div class=""trial-box"">
        <img src=""images/maqub_plur.png"" class=""stim-image"" alt=""maqub_plur.png"">
        <p class=""instr-text"">Which word matches this picture?</p>
      </div>","0","html-button-response","18","2.1.0","72803","forced_choice","stage1","maqub","true","","Exposure","guapzdtayb","maqubdup","mabuqdup","0","true","5","","","","","","","","","","","","","",""
"1234","
        <div class=""trial-box feedback-box feedback-correct"">
          <p>✓ Correct!</p>
          <p>The correct answer was: <strong>maqubdup</strong></p>
        </div>","0","html-button-response","19","2.1.0","74038","feedback","stage1","","","","Exposure","guapzdtayb","","","","","","","","","","","","","","","","","","",""
"4531","
      <div class=""trial-box"">
        <img src=""images/wukin_plur.png"" class=""stim-image"" alt=""wukin_plur.png"">
        <p class=""instr-text"">Which word matches this picture?</p>
      </div>","0","html-button-response","20","2.1.0","78569","forced_choice","stage1","wukin","true","","Exposure","guapzdtayb","wukindup","wikundup","0","true","6","","","","","","","","","","","","","",""
"981","
        <div class=""trial-box feedback-box feedback-correct"">
          <p>✓ Correct!</p>
          <p>The correct answer was: <strong>wukindup</strong></p>
        </div>","0","html-button-response","21","2.1.0","79551","feedback","stage1","","","","Exposure","guapzdtayb","","","","","","","","","","","","","","","","","","",""
"2489","
      <div class=""trial-box"">
        <img src=""images/laniz_sing.png"" class=""stim-image"" alt=""laniz_sing.png"">
        <p class=""instr-text"">Which word matches this picture?</p>
      </div>","1","html-button-response","22","2.1.0","82041","forced_choice","stage1","laniz","false","","Exposure","guapzdtayb","laniz","lazin","1","true","7","","","","","","","","","","","","","",""
"1078","
        <div class=""trial-box feedback-box feedback-correct"">
          <p>✓ Correct!</p>
          <p>The correct answer was: <strong>laniz</strong></p>
        </div>","0","html-button-response","23","2.1.0","83119","feedback","stage1","","","","Exposure","guapzdtayb","","","","","","","","","","","","","","","","","","",""
"2063","
      <div class=""trial-box"">
        <img src=""images/firot_sing.png"" class=""stim-image"" alt=""firot_sing.png"">
        <p class=""instr-text"">Which word matches this picture?</p>
      </div>","0","html-button-response","24","2.1.0","85183","forced_choice","stage1","firot","false","","Exposure","guapzdtayb","firot","fitor","0","true","8","","","","","","","","","","","","","",""
"967","
        <div class=""trial-box feedback-box feedback-correct"">
          <p>✓ Correct!</p>
          <p>The correct answer was: <strong>firot</strong></p>
        </div>","0","html-button-response","25","2.1.0","86151","feedback","stage1","","","","Exposure","guapzdtayb","","","","","","","","","","","","","","","","","","",""
"2836","
      <div class=""trial-box"">
        <div class=""word-display"">tugan</div>
        <img src=""images/tugan_sing.png"" class=""stim-image"" alt=""tugan_sing.png"">
      </div>","0","html-button-response","26","2.1.0","88988","passive_exposure","stage1","tugan","false","null","Exposure","guapzdtayb","","","","","","","","","","","","","","","","","","",""
"3599","
      <div class=""trial-box"">
        <div class=""word-display"">wumosdup</div>
        <img src=""images/wumos_plur.png"" class=""stim-image"" alt=""wumos_plur.png"">
      </div>","0","html-button-response","27","2.1.0","92587","passive_exposure","stage1","wumos","true","dup","Exposure","guapzdtayb","","","","","","","","","","","","","","","","","","",""
"2787","
      <div class=""trial-box"">
        <div class=""word-display"">nuwik</div>
        <img src=""images/nuwik_sing.png"" class=""stim-image"" alt=""nuwik_sing.png"">
      </div>","0","html-button-response","28","2.1.0","95375","passive_exposure","stage1","nuwik","false","null","Exposure","guapzdtayb","","","","","","","","","","","","","","","","","","",""
"3610","
      <div class=""trial-box"">
        <div class=""word-display"">hiwendup</div>
        <img src=""images/hiwen_plur.png"" class=""stim-image"" alt=""hiwen_plur.png"">
      </div>","0","html-button-response","29","2.1.0","98986","passive_exposure","stage1","hiwen","true","dup","Exposure","guapzdtayb","","","","","","","","","","","","","","","","","","",""
"2129","
      <div class=""trial-box"">
        <img src=""images/tugan_sing.png"" class=""stim-image"" alt=""tugan_sing.png"">
        <p class=""instr-text"">Which word matches this picture?</p>
      </div>","0","html-button-response","30","2.1.0","101115","forced_choice","stage1","tugan","false","","Exposure","guapzdtayb","tugan","tagun","0","true","9","","","","","","","","","","","","","",""
"844","
        <div class=""trial-box feedback-box feedback-correct"">
          <p>✓ Correct!</p>
          <p>The correct answer was: <strong>tugan</strong></p>
        </div>","0","html-button-response","31","2.1.0","101960","feedback","stage1","","","","Exposure","guapzdtayb","","","","","","","","","","","","","","","","","","",""
"2333","
      <div class=""trial-box"">
        <img src=""images/nuwik_sing.png"" class=""stim-image"" alt=""nuwik_sing.png"">
        <p class=""instr-text"">Which word matches this picture?</p>
      </div>","1","html-button-response","32","2.1.0","104293","forced_choice","stage1","nuwik","false","","Exposure","guapzdtayb","nuwik","niwuk","1","true","10","","","","","","","","","","","","","",""
"1144","
        <div class=""trial-box feedback-box feedback-correct"">
          <p>✓ Correct!</p>
          <p>The correct answer was: <strong>nuwik</strong></p>
        </div>","0","html-button-response","33","2.1.0","105438","feedback","stage1","","","","Exposure","guapzdtayb","","","","","","","","","","","","","","","","","","",""
"3194","
      <div class=""trial-box"">
        <img src=""images/wumos_plur.png"" class=""stim-image"" alt=""wumos_plur.png"">
        <p class=""instr-text"">Which word matches this picture?</p>
      </div>","0","html-button-response","34","2.1.0","108633","forced_choice","stage1","wumos","true","","Exposure","guapzdtayb","wumosdup","womusdup","0","true","11","","","","","","","","","","","","","",""
"810","
        <div class=""trial-box feedback-box feedback-correct"">
          <p>✓ Correct!</p>
          <p>The correct answer was: <strong>wumosdup</strong></p>
        </div>","0","html-button-response","35","2.1.0","109443","feedback","stage1","","","","Exposure","guapzdtayb","","","","","","","","","","","","","","","","","","",""
"3098","
      <div class=""trial-box"">
        <img src=""images/hiwen_plur.png"" class=""stim-image"" alt=""hiwen_plur.png"">
        <p class=""instr-text"">Which word matches this picture?</p>
      </div>","0","html-button-response","36","2.1.0","112542","forced_choice","stage1","hiwen","true","","Exposure","guapzdtayb","hiwendup","wihendup","1","false","11","","","","","","","","","","","","","",""
"null","
        <div class=""trial-box feedback-box feedback-incorrect"">
          <p>✗ Incorrect</p>
          <p>The correct answer was: <strong>hiwendup</strong></p>
        </div>","null","html-button-response","37","2.1.0","114543","feedback","stage1","","","","Exposure","guapzdtayb","","","","","","","","","","","","","","","","","","",""
"32587","
      <div class=""trial-box"">
        <div class=""word-display"">falon</div>
        <img src=""images/falon_sing.png"" class=""stim-image"" alt=""falon_sing.png"">
      </div>","0","html-button-response","38","2.1.0","147131","passive_exposure","stage1","falon","false","null","Exposure","guapzdtayb","","","","","","","","","","","","","","","","","","",""
"2397","
      <div class=""trial-box"">
        <div class=""word-display"">jemulok</div>
        <img src=""images/jemulok_sing.png"" class=""stim-image"" alt=""jemulok_sing.png"">
      </div>","0","html-button-response","39","2.1.0","149530","passive_exposure","stage1","jemulok","false","null","Exposure","guapzdtayb","","","","","","","","","","","","","","","","","","",""
"1608","
      <div class=""trial-box"">
        <img src=""images/falon_sing.png"" class=""stim-image"" alt=""falon_sing.png"">
        <p class=""instr-text"">Which word matches this picture?</p>
      </div>","0","html-button-response","40","2.1.0","151139","forced_choice","stage1","falon","false","","Exposure","guapzdtayb","falon","folan","0","true","12","","","","","","","","","","","","","",""
"998","
        <div class=""trial-box feedback-box feedback-correct"">
          <p>✓ Correct!</p>
          <p>The correct answer was: <strong>falon</strong></p>
        </div>","0","html-button-response","41","2.1.0","152137","feedback","stage1","","","","Exposure","guapzdtayb","","","","","","","","","","","","","","","","","","",""
"1751","
      <div class=""trial-box"">
        <img src=""images/jemulok_sing.png"" class=""stim-image"" alt=""jemulok_sing.png"">
        <p class=""instr-text"">Which word matches this picture?</p>
      </div>","0","html-button-response","42","2.1.0","153888","forced_choice","stage1","jemulok","false","","Exposure","guapzdtayb","jemulok","jelumok","0","true","13","","","","","","","","","","","","","",""
"967","
        <div class=""trial-box feedback-box feedback-correct"">
          <p>✓ Correct!</p>
          <p>The correct answer was: <strong>jemulok</strong></p>
        </div>","0","html-button-response","43","2.1.0","154856","feedback","stage1","","","","Exposure","guapzdtayb","","","","","","","","","","","","","","","","","","",""
"2018","
      <div class=""trial-box"">
        <div class=""word-display"">hiwen</div>
        <img src=""images/hiwen_sing.png"" class=""stim-image"" alt=""hiwen_sing.png"">
      </div>","0","html-button-response","44","2.1.0","156875","passive_exposure","stage1","hiwen","false","null","Exposure","guapzdtayb","","","","","","","","","","","","","","","","","","",""
"2289","
      <div class=""trial-box"">
        <div class=""word-display"">wumos</div>
        <img src=""images/wumos_sing.png"" class=""stim-image"" alt=""wumos_sing.png"">
      </div>","0","html-button-response","45","2.1.0","159165","passive_exposure","stage1","wumos","false","null","Exposure","guapzdtayb","","","","","","","","","","","","","","","","","","",""
"2291","
      <div class=""trial-box"">
        <div class=""word-display"">neseldup</div>
        <img src=""images/nesel_plur.png"" class=""stim-image"" alt=""nesel_plur.png"">
      </div>","0","html-button-response","46","2.1.0","161457","passive_exposure","stage1","nesel","true","dup","Exposure","guapzdtayb","","","","","","","","","","","","","","","","","","",""
"3700","
      <div class=""trial-box"">
        <div class=""word-display"">sehiloddup</div>
        <img src=""images/sehilod_plur.png"" class=""stim-image"" alt=""sehilod_plur.png"">
      </div>","0","html-button-response","47","2.1.0","165157","passive_exposure","stage1","sehilod","true","dup","Exposure","guapzdtayb","","","","","","","","","","","","","","","","","","",""
"2063","
      <div class=""trial-box"">
        <img src=""images/sehilod_plur.png"" class=""stim-image"" alt=""sehilod_plur.png"">
        <p class=""instr-text"">Which word matches this picture?</p>
      </div>","0","html-button-response","48","2.1.0","167220","forced_choice","stage1","sehilod","true","","Exposure","guapzdtayb","sehiloddup","siheloddup","0","true","14","","","","","","","","","","","","","",""
"1485","
        <div class=""trial-box feedback-box feedback-correct"">
          <p>✓ Correct!</p>
          <p>The correct answer was: <strong>sehiloddup</strong></p>
        </div>","0","html-button-response","49","2.1.0","168706","feedback","stage1","","","","Exposure","guapzdtayb","","","","","","","","","","","","","","","","","","",""
"1861","
      <div class=""trial-box"">
        <img src=""images/wumos_sing.png"" class=""stim-image"" alt=""wumos_sing.png"">
        <p class=""instr-text"">Which word matches this picture?</p>
      </div>","1","html-button-response","50","2.1.0","170568","forced_choice","stage1","wumos","false","","Exposure","guapzdtayb","wumos","womus","1","true","15","","","","","","","","","","","","","",""
"900","
        <div class=""trial-box feedback-box feedback-correct"">
          <p>✓ Correct!</p>
          <p>The correct answer was: <strong>wumos</strong></p>
        </div>","0","html-button-response","51","2.1.0","171469","feedback","stage1","","","","Exposure","guapzdtayb","","","","","","","","","","","","","","","","","","",""
"1509","
      <div class=""trial-box"">
        <img src=""images/hiwen_sing.png"" class=""stim-image"" alt=""hiwen_sing.png"">
        <p class=""instr-text"">Which word matches this picture?</p>
      </div>","0","html-button-response","52","2.1.0","172979","forced_choice","stage1","hiwen","false","","Exposure","guapzdtayb","hiwen","wihen","0","true","16","","","","","","","","","","","","","",""
"918","
        <div class=""trial-box feedback-box feedback-correct"">
          <p>✓ Correct!</p>
          <p>The correct answer was: <strong>hiwen</strong></p>
        </div>","0","html-button-response","53","2.1.0","173898","feedback","stage1","","","","Exposure","guapzdtayb","","","","","","","","","","","","","","","","","","",""
"2182","
      <div class=""trial-box"">
        <img src=""images/nesel_plur.png"" class=""stim-image"" alt=""nesel_plur.png"">
        <p class=""instr-text"">Which word matches this picture?</p>
      </div>","0","html-button-response","54","2.1.0","176081","forced_choice","stage1","nesel","true","","Exposure","guapzdtayb","neseldup","nelesdup","0","true","17","","","","","","","","","","","","","",""
"1117","
        <div class=""trial-box feedback-box feedback-correct"">
          <p>✓ Correct!</p>
          <p>The correct answer was: <strong>neseldup</strong></p>
        </div>","0","html-button-response","55","2.1.0","177198","feedback","stage1","","","","Exposure","guapzdtayb","","","","","","","","","","","","","","","","","","",""
"2845","
      <div class=""trial-box"">
        <div class=""word-display"">lanizdup</div>
        <img src=""images/laniz_plur.png"" class=""stim-image"" alt=""laniz_plur.png"">
      </div>","0","html-button-response","56","2.1.0","180044","passive_exposure","stage1","laniz","true","dup","Exposure","guapzdtayb","","","","","","","","","","","","","","","","","","",""
"2400","
      <div class=""trial-box"">
        <div class=""word-display"">firot</div>
        <img src=""images/firot_sing.png"" class=""stim-image"" alt=""firot_sing.png"">
      </div>","0","html-button-response","57","2.1.0","182445","passive_exposure","stage1","firot","false","null","Exposure","guapzdtayb","","","","","","","","","","","","","","","","","","",""
"3120","
      <div class=""trial-box"">
        <div class=""word-display"">jemulok</div>
        <img src=""images/jemulok_sing.png"" class=""stim-image"" alt=""jemulok_sing.png"">
      </div>","0","html-button-response","58","2.1.0","185566","passive_exposure","stage1","jemulok","false","null","Exposure","guapzdtayb","","","","","","","","","","","","","","","","","","",""
"4590","
      <div class=""trial-box"">
        <div class=""word-display"">tugannup</div>
        <img src=""images/tugan_plur.png"" class=""stim-image"" alt=""tugan_plur.png"">
      </div>","0","html-button-response","59","2.1.0","190156","passive_exposure","stage1","tugan","true","nup","Exposure","guapzdtayb","","","","","","","","","","","","","","","","","","",""
"3976","
      <div class=""trial-box"">
        <img src=""images/laniz_plur.png"" class=""stim-image"" alt=""laniz_plur.png"">
        <p class=""instr-text"">Which word matches this picture?</p>
      </div>","1","html-button-response","60","2.1.0","194133","forced_choice","stage1","laniz","true","","Exposure","guapzdtayb","lanizdup","lazindup","0","false","17","","","","","","","","","","","","","",""
"1284","
        <div class=""trial-box feedback-box feedback-incorrect"">
          <p>✗ Incorrect</p>
          <p>The correct answer was: <strong>lanizdup</strong></p>
        </div>","0","html-button-response","61","2.1.0","195418","feedback","stage1","","","","Exposure","guapzdtayb","","","","","","","","","","","","","","","","","","",""
"1347","
      <div class=""trial-box"">
        <img src=""images/firot_sing.png"" class=""stim-image"" alt=""firot_sing.png"">
        <p class=""instr-text"">Which word matches this picture?</p>
      </div>","0","html-button-response","62","2.1.0","196766","forced_choice","stage1","firot","false","","Exposure","guapzdtayb","firot","fitor","0","true","18","","","","","","","","","","","","","",""
"833","
        <div class=""trial-box feedback-box feedback-correct"">
          <p>✓ Correct!</p>
          <p>The correct answer was: <strong>firot</strong></p>
        </div>","0","html-button-response","63","2.1.0","197599","feedback","stage1","","","","Exposure","guapzdtayb","","","","","","","","","","","","","","","","","","",""
"3751","
      <div class=""trial-box"">
        <img src=""images/tugan_plur.png"" class=""stim-image"" alt=""tugan_plur.png"">
        <p class=""instr-text"">Which word matches this picture?</p>
      </div>","0","html-button-response","64","2.1.0","201351","forced_choice","stage1","tugan","true","","Exposure","guapzdtayb","tugannup","tagunnup","0","true","19","","","","","","","","","","","","","",""
"911","
        <div class=""trial-box feedback-box feedback-correct"">
          <p>✓ Correct!</p>
          <p>The correct answer was: <strong>tugannup</strong></p>
        </div>","0","html-button-response","65","2.1.0","202263","feedback","stage1","","","","Exposure","guapzdtayb","","","","","","","","","","","","","","","","","","",""
"4075","
      <div class=""trial-box"">
        <img src=""images/jemulok_sing.png"" class=""stim-image"" alt=""jemulok_sing.png"">
        <p class=""instr-text"">Which word matches this picture?</p>
      </div>","0","html-button-response","66","2.1.0","206339","forced_choice","stage1","jemulok","false","","Exposure","guapzdtayb","jemulok","jelumok","0","true","20","","","","","","","","","","","","","",""
"860","
        <div class=""trial-box feedback-box feedback-correct"">
          <p>✓ Correct!</p>
          <p>The correct answer was: <strong>jemulok</strong></p>
        </div>","0","html-button-response","67","2.1.0","207200","feedback","stage1","","","","Exposure","guapzdtayb","","","","","","","","","","","","","","","","","","",""
"2094","
      <div class=""trial-box"">
        <div class=""word-display"">takoles</div>
        <img src=""images/takoles_sing.png"" class=""stim-image"" alt=""takoles_sing.png"">
      </div>","0","html-button-response","68","2.1.0","209294","passive_exposure","stage1","takoles","false","null","Exposure","guapzdtayb","","","","","","","","","","","","","","","","","","",""
"2761","
      <div class=""trial-box"">
        <div class=""word-display"">nuwikdup</div>
        <img src=""images/nuwik_plur.png"" class=""stim-image"" alt=""nuwik_plur.png"">
      </div>","0","html-button-response","69","2.1.0","212056","passive_exposure","stage1","nuwik","true","dup","Exposure","guapzdtayb","","","","","","","","","","","","","","","","","","",""
"2073","
      <div class=""trial-box"">
        <div class=""word-display"">falon</div>
        <img src=""images/falon_sing.png"" class=""stim-image"" alt=""falon_sing.png"">
      </div>","0","html-button-response","70","2.1.0","214130","passive_exposure","stage1","falon","false","null","Exposure","guapzdtayb","","","","","","","","","","","","","","","","","","",""
"1692","
      <div class=""trial-box"">
        <div class=""word-display"">wukindup</div>
        <img src=""images/wukin_plur.png"" class=""stim-image"" alt=""wukin_plur.png"">
      </div>","0","html-button-response","71","2.1.0","215823","passive_exposure","stage1","wukin","true","dup","Exposure","guapzdtayb","","","","","","","","","","","","","","","","","","",""
"3035","
      <div class=""trial-box"">
        <img src=""images/wukin_plur.png"" class=""stim-image"" alt=""wukin_plur.png"">
        <p class=""instr-text"">Which word matches this picture?</p>
      </div>","1","html-button-response","72","2.1.0","218859","forced_choice","stage1","wukin","true","","Exposure","guapzdtayb","wukindup","wikundup","1","true","21","","","","","","","","","","","","","",""
"1008","
        <div class=""trial-box feedback-box feedback-correct"">
          <p>✓ Correct!</p>
          <p>The correct answer was: <strong>wukindup</strong></p>
        </div>","0","html-button-response","73","2.1.0","219868","feedback","stage1","","","","Exposure","guapzdtayb","","","","","","","","","","","","","","","","","","",""
"1352","
      <div class=""trial-box"">
        <img src=""images/falon_sing.png"" class=""stim-image"" alt=""falon_sing.png"">
        <p class=""instr-text"">Which word matches this picture?</p>
      </div>","1","html-button-response","74","2.1.0","221221","forced_choice","stage1","falon","false","","Exposure","guapzdtayb","falon","folan","1","true","22","","","","","","","","","","","","","",""
"836","
        <div class=""trial-box feedback-box feedback-correct"">
          <p>✓ Correct!</p>
          <p>The correct answer was: <strong>falon</strong></p>
        </div>","0","html-button-response","75","2.1.0","222057","feedback","stage1","","","","Exposure","guapzdtayb","","","","","","","","","","","","","","","","","","",""
"2106","
      <div class=""trial-box"">
        <img src=""images/takoles_sing.png"" class=""stim-image"" alt=""takoles_sing.png"">
        <p class=""instr-text"">Which word matches this picture?</p>
      </div>","0","html-button-response","76","2.1.0","224164","forced_choice","stage1","takoles","false","","Exposure","guapzdtayb","takoles","katoles","0","true","23","","","","","","","","","","","","","",""
"882","
        <div class=""trial-box feedback-box feedback-correct"">
          <p>✓ Correct!</p>
          <p>The correct answer was: <strong>takoles</strong></p>
        </div>","0","html-button-response","77","2.1.0","225047","feedback","stage1","","","","Exposure","guapzdtayb","","","","","","","","","","","","","","","","","","",""
"2688","
      <div class=""trial-box"">
        <img src=""images/nuwik_plur.png"" class=""stim-image"" alt=""nuwik_plur.png"">
        <p class=""instr-text"">Which word matches this picture?</p>
      </div>","1","html-button-response","78","2.1.0","227735","forced_choice","stage1","nuwik","true","","Exposure","guapzdtayb","nuwikdup","niwukdup","1","true","24","","","","","","","","","","","","","",""
"1181","
        <div class=""trial-box feedback-box feedback-correct"">
          <p>✓ Correct!</p>
          <p>The correct answer was: <strong>nuwikdup</strong></p>
        </div>","0","html-button-response","79","2.1.0","228917","feedback","stage1","","","","Exposure","guapzdtayb","","","","","","","","","","","","","","","","","","",""
"2223","
      <div class=""trial-box"">
        <div class=""word-display"">maqub</div>
        <img src=""images/maqub_sing.png"" class=""stim-image"" alt=""maqub_sing.png"">
      </div>","0","html-button-response","80","2.1.0","231140","passive_exposure","stage1","maqub","false","null","Exposure","guapzdtayb","","","","","","","","","","","","","","","","","","",""
"2749","
      <div class=""trial-box"">
        <div class=""word-display"">gequzis</div>
        <img src=""images/gequzis_sing.png"" class=""stim-image"" alt=""gequzis_sing.png"">
      </div>","0","html-button-response","81","2.1.0","233890","passive_exposure","stage1","gequzis","false","null","Exposure","guapzdtayb","","","","","","","","","","","","","","","","","","",""
"7468","
      <div class=""trial-box"">
        <img src=""images/gequzis_sing.png"" class=""stim-image"" alt=""gequzis_sing.png"">
        <p class=""instr-text"">Which word matches this picture?</p>
      </div>","1","html-button-response","82","2.1.0","241359","forced_choice","stage1","gequzis","false","","Exposure","guapzdtayb","gequzis","gequsiz","1","true","25","","","","","","","","","","","","","",""
"854","
        <div class=""trial-box feedback-box feedback-correct"">
          <p>✓ Correct!</p>
          <p>The correct answer was: <strong>gequzis</strong></p>
        </div>","0","html-button-response","83","2.1.0","242213","feedback","stage1","","","","Exposure","guapzdtayb","","","","","","","","","","","","","","","","","","",""
"2227","
      <div class=""trial-box"">
        <img src=""images/maqub_sing.png"" class=""stim-image"" alt=""maqub_sing.png"">
        <p class=""instr-text"">Which word matches this picture?</p>
      </div>","0","html-button-response","84","2.1.0","244441","forced_choice","stage1","maqub","false","","Exposure","guapzdtayb","maqub","mabuq","0","true","26","","","","","","","","","","","","","",""
"667","
        <div class=""trial-box feedback-box feedback-correct"">
          <p>✓ Correct!</p>
          <p>The correct answer was: <strong>maqub</strong></p>
        </div>","0","html-button-response","85","2.1.0","245108","feedback","stage1","","","","Exposure","guapzdtayb","","","","","","","","","","","","","","","","","","",""
"6392","
    <div class=""instr-box"">
      <h2>Meet the aliens</h2>
      <p>The language you have been learning is spoken by two alien species: <strong>Gulus</strong> and <strong>Norls</strong>.</p>
      <p>On the next screens you will see images of both species. Try to learn which is which!</p>
    </div>","0","html-button-response","86","2.1.0","251501","alien_intro","","","","","Exposure","guapzdtayb","","","","","","","","","","","","","","","","","","",""
"2841","
    <div class=""trial-box"">
      <p class=""species-label gulu-label"">This is a <strong>Gulu</strong></p>
      <img src=""images/gulu_1.png"" class=""alien-image"" alt=""gulu_1.png"">
    </div>","0","html-button-response","87","2.1.0","254343","alien_show","","","","","Exposure","guapzdtayb","","","","","","Gulu","","","","","","","","","","","","",""
"2423","
    <div class=""trial-box"">
      <p class=""species-label norl-label"">This is a <strong>Norl</strong></p>
      <img src=""images/norl_1.png"" class=""alien-image"" alt=""norl_1.png"">
    </div>","0","html-button-response","88","2.1.0","256766","alien_show","","","","","Exposure","guapzdtayb","","","","","","Norl","","","","","","","","","","","","",""
"3367","
      <div class=""trial-box"">
        <img src=""images/norl_2.png"" class=""alien-image"" alt=""norl_2.png"">
        <p class=""instr-text"">Which species is this?</p>
      </div>","0","html-button-response","89","2.1.0","260134","alien_id","","","","","Exposure","guapzdtayb","","","","true","","","norl_2.png","Norl","","","","","","","","","","",""
"1328","
        <div class=""trial-box feedback-box feedback-correct"">
          <p>✓ Correct!</p>
        </div>","0","html-button-response","90","2.1.0","261463","alien_id_feedback","","","","","Exposure","guapzdtayb","","","","","","","","","","","","","","","","","","",""
"1428","
      <div class=""trial-box"">
        <img src=""images/gulu_3.png"" class=""alien-image"" alt=""gulu_3.png"">
        <p class=""instr-text"">Which species is this?</p>
      </div>","1","html-button-response","91","2.1.0","262892","alien_id","","","","","Exposure","guapzdtayb","","","","true","","","gulu_3.png","Gulu","","","","","","","","","","",""
"1472","
        <div class=""trial-box feedback-box feedback-correct"">
          <p>✓ Correct!</p>
        </div>","0","html-button-response","92","2.1.0","264365","alien_id_feedback","","","","","Exposure","guapzdtayb","","","","","","","","","","","","","","","","","","",""
"3377","
      <div class=""trial-box"">
        <img src=""images/gulu_2.png"" class=""alien-image"" alt=""gulu_2.png"">
        <p class=""instr-text"">Which species is this?</p>
      </div>","1","html-button-response","93","2.1.0","267742","alien_id","","","","","Exposure","guapzdtayb","","","","true","","","gulu_2.png","Gulu","","","","","","","","","","",""
"1198","
        <div class=""trial-box feedback-box feedback-correct"">
          <p>✓ Correct!</p>
        </div>","0","html-button-response","94","2.1.0","268940","alien_id_feedback","","","","","Exposure","guapzdtayb","","","","","","","","","","","","","","","","","","",""
"2357","
      <div class=""trial-box"">
        <img src=""images/norl_3.png"" class=""alien-image"" alt=""norl_3.png"">
        <p class=""instr-text"">Which species is this?</p>
      </div>","1","html-button-response","95","2.1.0","271299","alien_id","","","","","Exposure","guapzdtayb","","","","true","","","norl_3.png","Norl","","","","","","","","","","",""
"1299","
        <div class=""trial-box feedback-box feedback-correct"">
          <p>✓ Correct!</p>
        </div>","0","html-button-response","96","2.1.0","272598","alien_id_feedback","","","","","Exposure","guapzdtayb","","","","","","","","","","","","","","","","","","",""
"31542","
    <div class=""instr-box"">
      <h2>Part 2: Learning with aliens</h2>
      <p>Now you will continue learning the language, but this time you will also see which alien is speaking.</p>
      <ul>
        <li>Each word will appear alongside a picture of the alien who used it.</li>
        <li>You will still have <strong>multiple-choice questions</strong> with feedback.</li>
        <li>Pay attention to which aliens use which words!</li>
      </ul>
      <p>Click <strong>Start</strong> to begin.</p>
    </div>","0","html-button-response","97","2.1.0","304142","instructions_stage2","","","","","Exposure","guapzdtayb","","","","","","","","","","","","","","","","","","",""
"2908","
      <div class=""trial-box stage2-trial"">
        <div class=""alien-speaker"">
          <img src=""images/gulu_1.png"" class=""alien-small"" alt=""gulu_1.png"">
          <span class=""species-label gulu-label"">Gulu</span>
        </div>
        <div class=""word-display"">falon</div>
        <img src=""images/falon_sing.png"" class=""stim-image"" alt=""falon_sing.png"">
      </div>","0","html-button-response","98","2.1.0","307051","passive_exposure","stage2","falon","false","null","Exposure","guapzdtayb","","","","","","Gulu","","","","","","","","","","","","",""
"28722","
      <div class=""trial-box stage2-trial"">
        <div class=""alien-speaker"">
          <img src=""images/gulu_2.png"" class=""alien-small"" alt=""gulu_2.png"">
          <span class=""species-label gulu-label"">Gulu</span>
        </div>
        <div class=""word-display"">tugandup</div>
        <img src=""images/tugan_plur.png"" class=""stim-image"" alt=""tugan_plur.png"">
      </div>","0","html-button-response","99","2.1.0","335774","passive_exposure","stage2","tugan","true","dup","Exposure","guapzdtayb","","","","","","Gulu","","","","","","","","","","","","",""
"5663","
      <div class=""trial-box stage2-trial"">
        <div class=""alien-speaker"">
          <img src=""images/norl_1.png"" class=""alien-small"" alt=""norl_1.png"">
          <span class=""species-label norl-label"">Norl</span>
        </div>
        <div class=""word-display"">nuwiknup</div>
        <img src=""images/nuwik_plur.png"" class=""stim-image"" alt=""nuwik_plur.png"">
      </div>","0","html-button-response","100","2.1.0","341438","passive_exposure","stage2","nuwik","true","nup","Exposure","guapzdtayb","","","","","","Norl","","","","","","","","","","","","",""
"4139","
      <div class=""trial-box stage2-trial"">
        <div class=""alien-speaker"">
          <img src=""images/norl_5.png"" class=""alien-small"" alt=""norl_5.png"">
          <span class=""species-label norl-label"">Norl</span>
        </div>
        <div class=""word-display"">takoles</div>
        <img src=""images/takoles_sing.png"" class=""stim-image"" alt=""takoles_sing.png"">
      </div>","0","html-button-response","101","2.1.0","345578","passive_exposure","stage2","takoles","false","null","Exposure","guapzdtayb","","","","","","Norl","","","","","","","","","","","","",""
"3693","
      <div class=""trial-box stage2-trial"">
        <div class=""alien-speaker"">
          <img src=""images/gulu_3.png"" class=""alien-small"" alt=""gulu_3.png"">
          <span class=""species-label gulu-label"">Gulu</span>
        </div>
        <img src=""images/tugan_plur.png"" class=""stim-image"" alt=""tugan_plur.png"">
        <p class=""instr-text"">Which word did the Gulu use?</p>
      </div>","0","html-button-response","102","2.1.0","349272","forced_choice","stage2","tugan","true","","Exposure","guapzdtayb","tugandup","tagundup","0","true","27","Gulu","","","","","","","","","","","","",""
"1415","
        <div class=""trial-box feedback-box feedback-correct"">
          <p>✓ Correct!</p>
          <p>The correct answer was: <strong>tugandup</strong></p>
        </div>","0","html-button-response","103","2.1.0","350688","feedback","stage2","","","","Exposure","guapzdtayb","","","","","","","","","","","","","","","","","","",""
"4381","
      <div class=""trial-box stage2-trial"">
        <div class=""alien-speaker"">
          <img src=""images/norl_1.png"" class=""alien-small"" alt=""norl_1.png"">
          <span class=""species-label norl-label"">Norl</span>
        </div>
        <img src=""images/takoles_sing.png"" class=""stim-image"" alt=""takoles_sing.png"">
        <p class=""instr-text"">Which word did the Norl use?</p>
      </div>","1","html-button-response","104","2.1.0","355070","forced_choice","stage2","takoles","false","","Exposure","guapzdtayb","takoles","katoles","1","true","28","Norl","","","","","","","","","","","","",""
"1013","
        <div class=""trial-box feedback-box feedback-correct"">
          <p>✓ Correct!</p>
          <p>The correct answer was: <strong>takoles</strong></p>
        </div>","0","html-button-response","105","2.1.0","356084","feedback","stage2","","","","Exposure","guapzdtayb","","","","","","","","","","","","","","","","","","",""
"2893","
      <div class=""trial-box stage2-trial"">
        <div class=""alien-speaker"">
          <img src=""images/gulu_6.png"" class=""alien-small"" alt=""gulu_6.png"">
          <span class=""species-label gulu-label"">Gulu</span>
        </div>
        <img src=""images/falon_sing.png"" class=""stim-image"" alt=""falon_sing.png"">
        <p class=""instr-text"">Which word did the Gulu use?</p>
      </div>","0","html-button-response","106","2.1.0","358978","forced_choice","stage2","falon","false","","Exposure","guapzdtayb","falon","folan","0","true","29","Gulu","","","","","","","","","","","","",""
"978","
        <div class=""trial-box feedback-box feedback-correct"">
          <p>✓ Correct!</p>
          <p>The correct answer was: <strong>falon</strong></p>
        </div>","0","html-button-response","107","2.1.0","359957","feedback","stage2","","","","Exposure","guapzdtayb","","","","","","","","","","","","","","","","","","",""
"2872","
      <div class=""trial-box stage2-trial"">
        <div class=""alien-speaker"">
          <img src=""images/norl_2.png"" class=""alien-small"" alt=""norl_2.png"">
          <span class=""species-label norl-label"">Norl</span>
        </div>
        <img src=""images/nuwik_plur.png"" class=""stim-image"" alt=""nuwik_plur.png"">
        <p class=""instr-text"">Which word did the Norl use?</p>
      </div>","0","html-button-response","108","2.1.0","362830","forced_choice","stage2","nuwik","true","","Exposure","guapzdtayb","nuwiknup","niwuknup","0","true","30","Norl","","","","","","","","","","","","",""
"1007","
        <div class=""trial-box feedback-box feedback-correct"">
          <p>✓ Correct!</p>
          <p>The correct answer was: <strong>nuwiknup</strong></p>
        </div>","0","html-button-response","109","2.1.0","363837","feedback","stage2","","","","Exposure","guapzdtayb","","","","","","","","","","","","","","","","","","",""
"3232","
      <div class=""trial-box stage2-trial"">
        <div class=""alien-speaker"">
          <img src=""images/norl_6.png"" class=""alien-small"" alt=""norl_6.png"">
          <span class=""species-label norl-label"">Norl</span>
        </div>
        <div class=""word-display"">wumosdup</div>
        <img src=""images/wumos_plur.png"" class=""stim-image"" alt=""wumos_plur.png"">
      </div>","0","html-button-response","110","2.1.0","367070","passive_exposure","stage2","wumos","true","dup","Exposure","guapzdtayb","","","","","","Norl","","","","","","","","","","","","",""
"3594","
      <div class=""trial-box stage2-trial"">
        <div class=""alien-speaker"">
          <img src=""images/norl_5.png"" class=""alien-small"" alt=""norl_5.png"">
          <span class=""species-label norl-label"">Norl</span>
        </div>
        <div class=""word-display"">gequzis</div>
        <img src=""images/gequzis_sing.png"" class=""stim-image"" alt=""gequzis_sing.png"">
      </div>","0","html-button-response","111","2.1.0","370665","passive_exposure","stage2","gequzis","false","null","Exposure","guapzdtayb","","","","","","Norl","","","","","","","","","","","","",""
"9605","
      <div class=""trial-box stage2-trial"">
        <div class=""alien-speaker"">
          <img src=""images/gulu_5.png"" class=""alien-small"" alt=""gulu_5.png"">
          <span class=""species-label gulu-label"">Gulu</span>
        </div>
        <div class=""word-display"">sehiloddup</div>
        <img src=""images/sehilod_plur.png"" class=""stim-image"" alt=""sehilod_plur.png"">
      </div>","0","html-button-response","112","2.1.0","380270","passive_exposure","stage2","sehilod","true","dup","Exposure","guapzdtayb","","","","","","Gulu","","","","","","","","","","","","",""
"1694","
      <div class=""trial-box stage2-trial"">
        <div class=""alien-speaker"">
          <img src=""images/gulu_3.png"" class=""alien-small"" alt=""gulu_3.png"">
          <span class=""species-label gulu-label"">Gulu</span>
        </div>
        <div class=""word-display"">laniz</div>
        <img src=""images/laniz_sing.png"" class=""stim-image"" alt=""laniz_sing.png"">
      </div>","0","html-button-response","113","2.1.0","381966","passive_exposure","stage2","laniz","false","null","Exposure","guapzdtayb","","","","","","Gulu","","","","","","","","","","","","",""
"3262","
      <div class=""trial-box stage2-trial"">
        <div class=""alien-speaker"">
          <img src=""images/norl_1.png"" class=""alien-small"" alt=""norl_1.png"">
          <span class=""species-label norl-label"">Norl</span>
        </div>
        <img src=""images/wumos_plur.png"" class=""stim-image"" alt=""wumos_plur.png"">
        <p class=""instr-text"">Which word did the Norl use?</p>
      </div>","0","html-button-response","114","2.1.0","385229","forced_choice","stage2","wumos","true","","Exposure","guapzdtayb","wumosdup","womusdup","0","true","31","Norl","","","","","","","","","","","","",""
"null","
        <div class=""trial-box feedback-box feedback-correct"">
          <p>✓ Correct!</p>
          <p>The correct answer was: <strong>wumosdup</strong></p>
        </div>","null","html-button-response","115","2.1.0","387542","feedback","stage2","","","","Exposure","guapzdtayb","","","","","","","","","","","","","","","","","","",""
"24077","
      <div class=""trial-box stage2-trial"">
        <div class=""alien-speaker"">
          <img src=""images/gulu_2.png"" class=""alien-small"" alt=""gulu_2.png"">
          <span class=""species-label gulu-label"">Gulu</span>
        </div>
        <img src=""images/sehilod_plur.png"" class=""stim-image"" alt=""sehilod_plur.png"">
        <p class=""instr-text"">Which word did the Gulu use?</p>
      </div>","0","html-button-response","116","2.1.0","411621","forced_choice","stage2","sehilod","true","","Exposure","guapzdtayb","sehiloddup","siheloddup","0","true","32","Gulu","","","","","","","","","","","","",""
"943","
        <div class=""trial-box feedback-box feedback-correct"">
          <p>✓ Correct!</p>
          <p>The correct answer was: <strong>sehiloddup</strong></p>
        </div>","0","html-button-response","117","2.1.0","412565","feedback","stage2","","","","Exposure","guapzdtayb","","","","","","","","","","","","","","","","","","",""
"7179","
      <div class=""trial-box stage2-trial"">
        <div class=""alien-speaker"">
          <img src=""images/norl_4.png"" class=""alien-small"" alt=""norl_4.png"">
          <span class=""species-label norl-label"">Norl</span>
        </div>
        <img src=""images/gequzis_sing.png"" class=""stim-image"" alt=""gequzis_sing.png"">
        <p class=""instr-text"">Which word did the Norl use?</p>
      </div>","1","html-button-response","118","2.1.0","419745","forced_choice","stage2","gequzis","false","","Exposure","guapzdtayb","gequzis","gequsiz","1","true","33","Norl","","","","","","","","","","","","",""
"826","
        <div class=""trial-box feedback-box feedback-correct"">
          <p>✓ Correct!</p>
          <p>The correct answer was: <strong>gequzis</strong></p>
        </div>","0","html-button-response","119","2.1.0","420572","feedback","stage2","","","","Exposure","guapzdtayb","","","","","","","","","","","","","","","","","","",""
"3115","
      <div class=""trial-box stage2-trial"">
        <div class=""alien-speaker"">
          <img src=""images/gulu_5.png"" class=""alien-small"" alt=""gulu_5.png"">
          <span class=""species-label gulu-label"">Gulu</span>
        </div>
        <img src=""images/laniz_sing.png"" class=""stim-image"" alt=""laniz_sing.png"">
        <p class=""instr-text"">Which word did the Gulu use?</p>
      </div>","0","html-button-response","120","2.1.0","423688","forced_choice","stage2","laniz","false","","Exposure","guapzdtayb","laniz","lazin","0","true","34","Gulu","","","","","","","","","","","","",""
"888","
        <div class=""trial-box feedback-box feedback-correct"">
          <p>✓ Correct!</p>
          <p>The correct answer was: <strong>laniz</strong></p>
        </div>","0","html-button-response","121","2.1.0","424576","feedback","stage2","","","","Exposure","guapzdtayb","","","","","","","","","","","","","","","","","","",""
"3064","
      <div class=""trial-box stage2-trial"">
        <div class=""alien-speaker"">
          <img src=""images/norl_1.png"" class=""alien-small"" alt=""norl_1.png"">
          <span class=""species-label norl-label"">Norl</span>
        </div>
        <div class=""word-display"">maqub</div>
        <img src=""images/maqub_sing.png"" class=""stim-image"" alt=""maqub_sing.png"">
      </div>","0","html-button-response","122","2.1.0","427641","passive_exposure","stage2","maqub","false","null","Exposure","guapzdtayb","","","","","","Norl","","","","","","","","","","","","",""
"3164","
      <div class=""trial-box stage2-trial"">
        <div class=""alien-speaker"">
          <img src=""images/gulu_3.png"" class=""alien-small"" alt=""gulu_3.png"">
          <span class=""species-label gulu-label"">Gulu</span>
        </div>
        <div class=""word-display"">wukin</div>
        <img src=""images/wukin_sing.png"" class=""stim-image"" alt=""wukin_sing.png"">
      </div>","0","html-button-response","123","2.1.0","430805","passive_exposure","stage2","wukin","false","null","Exposure","guapzdtayb","","","","","","Gulu","","","","","","","","","","","","",""
"2848","
      <div class=""trial-box stage2-trial"">
        <div class=""alien-speaker"">
          <img src=""images/gulu_6.png"" class=""alien-small"" alt=""gulu_6.png"">
          <span class=""species-label gulu-label"">Gulu</span>
        </div>
        <div class=""word-display"">firotdup</div>
        <img src=""images/firot_plur.png"" class=""stim-image"" alt=""firot_plur.png"">
      </div>","0","html-button-response","124","2.1.0","433654","passive_exposure","stage2","firot","true","dup","Exposure","guapzdtayb","","","","","","Gulu","","","","","","","","","","","","",""
"3921","
      <div class=""trial-box stage2-trial"">
        <div class=""alien-speaker"">
          <img src=""images/norl_4.png"" class=""alien-small"" alt=""norl_4.png"">
          <span class=""species-label norl-label"">Norl</span>
        </div>
        <div class=""word-display"">neselnup</div>
        <img src=""images/nesel_plur.png"" class=""stim-image"" alt=""nesel_plur.png"">
      </div>","0","html-button-response","125","2.1.0","437576","passive_exposure","stage2","nesel","true","nup","Exposure","guapzdtayb","","","","","","Norl","","","","","","","","","","","","",""
"2182","
      <div class=""trial-box stage2-trial"">
        <div class=""alien-speaker"">
          <img src=""images/norl_5.png"" class=""alien-small"" alt=""norl_5.png"">
          <span class=""species-label norl-label"">Norl</span>
        </div>
        <img src=""images/maqub_sing.png"" class=""stim-image"" alt=""maqub_sing.png"">
        <p class=""instr-text"">Which word did the Norl use?</p>
      </div>","0","html-button-response","126","2.1.0","439759","forced_choice","stage2","maqub","false","","Exposure","guapzdtayb","maqub","mabuq","0","true","35","Norl","","","","","","","","","","","","",""
"852","
        <div class=""trial-box feedback-box feedback-correct"">
          <p>✓ Correct!</p>
          <p>The correct answer was: <strong>maqub</strong></p>
        </div>","0","html-button-response","127","2.1.0","440612","feedback","stage2","","","","Exposure","guapzdtayb","","","","","","","","","","","","","","","","","","",""
"3542","
      <div class=""trial-box stage2-trial"">
        <div class=""alien-speaker"">
          <img src=""images/gulu_4.png"" class=""alien-small"" alt=""gulu_4.png"">
          <span class=""species-label gulu-label"">Gulu</span>
        </div>
        <img src=""images/firot_plur.png"" class=""stim-image"" alt=""firot_plur.png"">
        <p class=""instr-text"">Which word did the Gulu use?</p>
      </div>","1","html-button-response","128","2.1.0","444155","forced_choice","stage2","firot","true","","Exposure","guapzdtayb","firotdup","fitordup","1","true","36","Gulu","","","","","","","","","","","","",""
"712","
        <div class=""trial-box feedback-box feedback-correct"">
          <p>✓ Correct!</p>
          <p>The correct answer was: <strong>firotdup</strong></p>
        </div>","0","html-button-response","129","2.1.0","444867","feedback","stage2","","","","Exposure","guapzdtayb","","","","","","","","","","","","","","","","","","",""
"5549","
      <div class=""trial-box stage2-trial"">
        <div class=""alien-speaker"">
          <img src=""images/norl_1.png"" class=""alien-small"" alt=""norl_1.png"">
          <span class=""species-label norl-label"">Norl</span>
        </div>
        <img src=""images/nesel_plur.png"" class=""stim-image"" alt=""nesel_plur.png"">
        <p class=""instr-text"">Which word did the Norl use?</p>
      </div>","1","html-button-response","130","2.1.0","450416","forced_choice","stage2","nesel","true","","Exposure","guapzdtayb","neselnup","nelesnup","1","true","37","Norl","","","","","","","","","","","","",""
"null","
        <div class=""trial-box feedback-box feedback-correct"">
          <p>✓ Correct!</p>
          <p>The correct answer was: <strong>neselnup</strong></p>
        </div>","null","html-button-response","131","2.1.0","452543","feedback","stage2","","","","Exposure","guapzdtayb","","","","","","","","","","","","","","","","","","",""
"18293","
      <div class=""trial-box stage2-trial"">
        <div class=""alien-speaker"">
          <img src=""images/gulu_2.png"" class=""alien-small"" alt=""gulu_2.png"">
          <span class=""species-label gulu-label"">Gulu</span>
        </div>
        <img src=""images/wukin_sing.png"" class=""stim-image"" alt=""wukin_sing.png"">
        <p class=""instr-text"">Which word did the Gulu use?</p>
      </div>","0","html-button-response","132","2.1.0","470838","forced_choice","stage2","wukin","false","","Exposure","guapzdtayb","wukin","wikun","1","false","37","Gulu","","","","","","","","","","","","",""
"1125","
        <div class=""trial-box feedback-box feedback-incorrect"">
          <p>✗ Incorrect</p>
          <p>The correct answer was: <strong>wukin</strong></p>
        </div>","0","html-button-response","133","2.1.0","471964","feedback","stage2","","","","Exposure","guapzdtayb","","","","","","","","","","","","","","","","","","",""
"2589","
      <div class=""trial-box stage2-trial"">
        <div class=""alien-speaker"">
          <img src=""images/gulu_2.png"" class=""alien-small"" alt=""gulu_2.png"">
          <span class=""species-label gulu-label"">Gulu</span>
        </div>
        <div class=""word-display"">hiwen</div>
        <img src=""images/hiwen_sing.png"" class=""stim-image"" alt=""hiwen_sing.png"">
      </div>","0","html-button-response","134","2.1.0","474553","passive_exposure","stage2","hiwen","false","null","Exposure","guapzdtayb","","","","","","Gulu","","","","","","","","","","","","",""
"2895","
      <div class=""trial-box stage2-trial"">
        <div class=""alien-speaker"">
          <img src=""images/norl_6.png"" class=""alien-small"" alt=""norl_6.png"">
          <span class=""species-label norl-label"">Norl</span>
        </div>
        <div class=""word-display"">jemulok</div>
        <img src=""images/jemulok_sing.png"" class=""stim-image"" alt=""jemulok_sing.png"">
      </div>","0","html-button-response","135","2.1.0","477449","passive_exposure","stage2","jemulok","false","null","Exposure","guapzdtayb","","","","","","Norl","","","","","","","","","","","","",""
"2906","
      <div class=""trial-box stage2-trial"">
        <div class=""alien-speaker"">
          <img src=""images/gulu_6.png"" class=""alien-small"" alt=""gulu_6.png"">
          <span class=""species-label gulu-label"">Gulu</span>
        </div>
        <img src=""images/hiwen_sing.png"" class=""stim-image"" alt=""hiwen_sing.png"">
        <p class=""instr-text"">Which word did the Gulu use?</p>
      </div>","0","html-button-response","136","2.1.0","480356","forced_choice","stage2","hiwen","false","","Exposure","guapzdtayb","hiwen","wihen","0","true","38","Gulu","","","","","","","","","","","","",""
"937","
        <div class=""trial-box feedback-box feedback-correct"">
          <p>✓ Correct!</p>
          <p>The correct answer was: <strong>hiwen</strong></p>
        </div>","0","html-button-response","137","2.1.0","481293","feedback","stage2","","","","Exposure","guapzdtayb","","","","","","","","","","","","","","","","","","",""
"2313","
      <div class=""trial-box stage2-trial"">
        <div class=""alien-speaker"">
          <img src=""images/norl_2.png"" class=""alien-small"" alt=""norl_2.png"">
          <span class=""species-label norl-label"">Norl</span>
        </div>
        <img src=""images/jemulok_sing.png"" class=""stim-image"" alt=""jemulok_sing.png"">
        <p class=""instr-text"">Which word did the Norl use?</p>
      </div>","1","html-button-response","138","2.1.0","483607","forced_choice","stage2","jemulok","false","","Exposure","guapzdtayb","jemulok","jelumok","1","true","39","Norl","","","","","","","","","","","","",""
"817","
        <div class=""trial-box feedback-box feedback-correct"">
          <p>✓ Correct!</p>
          <p>The correct answer was: <strong>jemulok</strong></p>
        </div>","0","html-button-response","139","2.1.0","484425","feedback","stage2","","","","Exposure","guapzdtayb","","","","","","","","","","","","","","","","","","",""
"2362","
      <div class=""trial-box stage2-trial"">
        <div class=""alien-speaker"">
          <img src=""images/norl_4.png"" class=""alien-small"" alt=""norl_4.png"">
          <span class=""species-label norl-label"">Norl</span>
        </div>
        <div class=""word-display"">falonnup</div>
        <img src=""images/falon_plur.png"" class=""stim-image"" alt=""falon_plur.png"">
      </div>","0","html-button-response","140","2.1.0","486788","passive_exposure","stage2","falon","true","nup","Exposure","guapzdtayb","","","","","","Norl","","","","","","","","","","","","",""
"2589","
      <div class=""trial-box stage2-trial"">
        <div class=""alien-speaker"">
          <img src=""images/gulu_3.png"" class=""alien-small"" alt=""gulu_3.png"">
          <span class=""species-label gulu-label"">Gulu</span>
        </div>
        <div class=""word-display"">nuwikdup</div>
        <img src=""images/nuwik_plur.png"" class=""stim-image"" alt=""nuwik_plur.png"">
      </div>","0","html-button-response","141","2.1.0","489378","passive_exposure","stage2","nuwik","true","dup","Exposure","guapzdtayb","","","","","","Gulu","","","","","","","","","","","","",""
"1941","
      <div class=""trial-box stage2-trial"">
        <div class=""alien-speaker"">
          <img src=""images/gulu_5.png"" class=""alien-small"" alt=""gulu_5.png"">
          <span class=""species-label gulu-label"">Gulu</span>
        </div>
        <div class=""word-display"">wukin</div>
        <img src=""images/wukin_sing.png"" class=""stim-image"" alt=""wukin_sing.png"">
      </div>","0","html-button-response","142","2.1.0","491320","passive_exposure","stage2","wukin","false","null","Exposure","guapzdtayb","","","","","","Gulu","","","","","","","","","","","","",""
"2944","
      <div class=""trial-box stage2-trial"">
        <div class=""alien-speaker"">
          <img src=""images/norl_6.png"" class=""alien-small"" alt=""norl_6.png"">
          <span class=""species-label norl-label"">Norl</span>
        </div>
        <div class=""word-display"">gequzis</div>
        <img src=""images/gequzis_sing.png"" class=""stim-image"" alt=""gequzis_sing.png"">
      </div>","0","html-button-response","143","2.1.0","494266","passive_exposure","stage2","gequzis","false","null","Exposure","guapzdtayb","","","","","","Norl","","","","","","","","","","","","",""
"2986","
      <div class=""trial-box stage2-trial"">
        <div class=""alien-speaker"">
          <img src=""images/gulu_6.png"" class=""alien-small"" alt=""gulu_6.png"">
          <span class=""species-label gulu-label"">Gulu</span>
        </div>
        <img src=""images/wukin_sing.png"" class=""stim-image"" alt=""wukin_sing.png"">
        <p class=""instr-text"">Which word did the Gulu use?</p>
      </div>","0","html-button-response","144","2.1.0","497253","forced_choice","stage2","wukin","false","","Exposure","guapzdtayb","wukin","wikun","1","false","39","Gulu","","","","","","","","","","","","",""
"977","
        <div class=""trial-box feedback-box feedback-incorrect"">
          <p>✗ Incorrect</p>
          <p>The correct answer was: <strong>wukin</strong></p>
        </div>","0","html-button-response","145","2.1.0","498231","feedback","stage2","","","","Exposure","guapzdtayb","","","","","","","","","","","","","","","","","","",""
"2983","
      <div class=""trial-box stage2-trial"">
        <div class=""alien-speaker"">
          <img src=""images/norl_6.png"" class=""alien-small"" alt=""norl_6.png"">
          <span class=""species-label norl-label"">Norl</span>
        </div>
        <img src=""images/gequzis_sing.png"" class=""stim-image"" alt=""gequzis_sing.png"">
        <p class=""instr-text"">Which word did the Norl use?</p>
      </div>","0","html-button-response","146","2.1.0","501215","forced_choice","stage2","gequzis","false","","Exposure","guapzdtayb","gequzis","gequsiz","0","true","40","Norl","","","","","","","","","","","","",""
"803","
        <div class=""trial-box feedback-box feedback-correct"">
          <p>✓ Correct!</p>
          <p>The correct answer was: <strong>gequzis</strong></p>
        </div>","0","html-button-response","147","2.1.0","502018","feedback","stage2","","","","Exposure","guapzdtayb","","","","","","","","","","","","","","","","","","",""
"3332","
      <div class=""trial-box stage2-trial"">
        <div class=""alien-speaker"">
          <img src=""images/norl_2.png"" class=""alien-small"" alt=""norl_2.png"">
          <span class=""species-label norl-label"">Norl</span>
        </div>
        <img src=""images/falon_plur.png"" class=""stim-image"" alt=""falon_plur.png"">
        <p class=""instr-text"">Which word did the Norl use?</p>
      </div>","0","html-button-response","148","2.1.0","505350","forced_choice","stage2","falon","true","","Exposure","guapzdtayb","falonnup","folannup","0","true","41","Norl","","","","","","","","","","","","",""
"991","
        <div class=""trial-box feedback-box feedback-correct"">
          <p>✓ Correct!</p>
          <p>The correct answer was: <strong>falonnup</strong></p>
        </div>","0","html-button-response","149","2.1.0","506342","feedback","stage2","","","","Exposure","guapzdtayb","","","","","","","","","","","","","","","","","","",""
"3956","
      <div class=""trial-box stage2-trial"">
        <div class=""alien-speaker"">
          <img src=""images/gulu_1.png"" class=""alien-small"" alt=""gulu_1.png"">
          <span class=""species-label gulu-label"">Gulu</span>
        </div>
        <img src=""images/nuwik_plur.png"" class=""stim-image"" alt=""nuwik_plur.png"">
        <p class=""instr-text"">Which word did the Gulu use?</p>
      </div>","0","html-button-response","150","2.1.0","510299","forced_choice","stage2","nuwik","true","","Exposure","guapzdtayb","nuwikdup","niwukdup","0","true","42","Gulu","","","","","","","","","","","","",""
"908","
        <div class=""trial-box feedback-box feedback-correct"">
          <p>✓ Correct!</p>
          <p>The correct answer was: <strong>nuwikdup</strong></p>
        </div>","0","html-button-response","151","2.1.0","511207","feedback","stage2","","","","Exposure","guapzdtayb","","","","","","","","","","","","","","","","","","",""
"2678","
      <div class=""trial-box stage2-trial"">
        <div class=""alien-speaker"">
          <img src=""images/gulu_2.png"" class=""alien-small"" alt=""gulu_2.png"">
          <span class=""species-label gulu-label"">Gulu</span>
        </div>
        <div class=""word-display"">sehilod</div>
        <img src=""images/sehilod_sing.png"" class=""stim-image"" alt=""sehilod_sing.png"">
      </div>","0","html-button-response","152","2.1.0","513886","passive_exposure","stage2","sehilod","false","null","Exposure","guapzdtayb","","","","","","Gulu","","","","","","","","","","","","",""
"5466","
      <div class=""trial-box stage2-trial"">
        <div class=""alien-speaker"">
          <img src=""images/norl_6.png"" class=""alien-small"" alt=""norl_6.png"">
          <span class=""species-label norl-label"">Norl</span>
        </div>
        <div class=""word-display"">takolesnup</div>
        <img src=""images/takoles_plur.png"" class=""stim-image"" alt=""takoles_plur.png"">
      </div>","0","html-button-response","153","2.1.0","519353","passive_exposure","stage2","takoles","true","nup","Exposure","guapzdtayb","","","","","","Norl","","","","","","","","","","","","",""
"4378","
      <div class=""trial-box stage2-trial"">
        <div class=""alien-speaker"">
          <img src=""images/gulu_5.png"" class=""alien-small"" alt=""gulu_5.png"">
          <span class=""species-label gulu-label"">Gulu</span>
        </div>
        <div class=""word-display"">hiwendup</div>
        <img src=""images/hiwen_plur.png"" class=""stim-image"" alt=""hiwen_plur.png"">
      </div>","0","html-button-response","154","2.1.0","523733","passive_exposure","stage2","hiwen","true","dup","Exposure","guapzdtayb","","","","","","Gulu","","","","","","","","","","","","",""
"11981","
      <div class=""trial-box stage2-trial"">
        <div class=""alien-speaker"">
          <img src=""images/norl_1.png"" class=""alien-small"" alt=""norl_1.png"">
          <span class=""species-label norl-label"">Norl</span>
        </div>
        <div class=""word-display"">jemulok</div>
        <img src=""images/jemulok_sing.png"" class=""stim-image"" alt=""jemulok_sing.png"">
      </div>","0","html-button-response","155","2.1.0","535715","passive_exposure","stage2","jemulok","false","null","Exposure","guapzdtayb","","","","","","Norl","","","","","","","","","","","","",""
"2876","
      <div class=""trial-box stage2-trial"">
        <div class=""alien-speaker"">
          <img src=""images/norl_4.png"" class=""alien-small"" alt=""norl_4.png"">
          <span class=""species-label norl-label"">Norl</span>
        </div>
        <img src=""images/takoles_plur.png"" class=""stim-image"" alt=""takoles_plur.png"">
        <p class=""instr-text"">Which word did the Norl use?</p>
      </div>","0","html-button-response","156","2.1.0","538592","forced_choice","stage2","takoles","true","","Exposure","guapzdtayb","takolesnup","katolesnup","0","true","43","Norl","","","","","","","","","","","","",""
"750","
        <div class=""trial-box feedback-box feedback-correct"">
          <p>✓ Correct!</p>
          <p>The correct answer was: <strong>takolesnup</strong></p>
        </div>","0","html-button-response","157","2.1.0","539342","feedback","stage2","","","","Exposure","guapzdtayb","","","","","","","","","","","","","","","","","","",""
"4477","
      <div class=""trial-box stage2-trial"">
        <div class=""alien-speaker"">
          <img src=""images/gulu_6.png"" class=""alien-small"" alt=""gulu_6.png"">
          <span class=""species-label gulu-label"">Gulu</span>
        </div>
        <img src=""images/sehilod_sing.png"" class=""stim-image"" alt=""sehilod_sing.png"">
        <p class=""instr-text"">Which word did the Gulu use?</p>
      </div>","0","html-button-response","158","2.1.0","543820","forced_choice","stage2","sehilod","false","","Exposure","guapzdtayb","sehilod","sihelod","1","false","43","Gulu","","","","","","","","","","","","",""
"1265","
        <div class=""trial-box feedback-box feedback-incorrect"">
          <p>✗ Incorrect</p>
          <p>The correct answer was: <strong>sehilod</strong></p>
        </div>","0","html-button-response","159","2.1.0","545086","feedback","stage2","","","","Exposure","guapzdtayb","","","","","","","","","","","","","","","","","","",""
"5498","
      <div class=""trial-box stage2-trial"">
        <div class=""alien-speaker"">
          <img src=""images/norl_6.png"" class=""alien-small"" alt=""norl_6.png"">
          <span class=""species-label norl-label"">Norl</span>
        </div>
        <img src=""images/jemulok_sing.png"" class=""stim-image"" alt=""jemulok_sing.png"">
        <p class=""instr-text"">Which word did the Norl use?</p>
      </div>","0","html-button-response","160","2.1.0","550585","forced_choice","stage2","jemulok","false","","Exposure","guapzdtayb","jemulok","jelumok","0","true","44","Norl","","","","","","","","","","","","",""
"879","
        <div class=""trial-box feedback-box feedback-correct"">
          <p>✓ Correct!</p>
          <p>The correct answer was: <strong>jemulok</strong></p>
        </div>","0","html-button-response","161","2.1.0","551464","feedback","stage2","","","","Exposure","guapzdtayb","","","","","","","","","","","","","","","","","","",""
"2648","
      <div class=""trial-box stage2-trial"">
        <div class=""alien-speaker"">
          <img src=""images/gulu_6.png"" class=""alien-small"" alt=""gulu_6.png"">
          <span class=""species-label gulu-label"">Gulu</span>
        </div>
        <img src=""images/hiwen_plur.png"" class=""stim-image"" alt=""hiwen_plur.png"">
        <p class=""instr-text"">Which word did the Gulu use?</p>
      </div>","0","html-button-response","162","2.1.0","554113","forced_choice","stage2","hiwen","true","","Exposure","guapzdtayb","hiwendup","wihendup","1","false","44","Gulu","","","","","","","","","","","","",""
"null","
        <div class=""trial-box feedback-box feedback-incorrect"">
          <p>✗ Incorrect</p>
          <p>The correct answer was: <strong>hiwendup</strong></p>
        </div>","null","html-button-response","163","2.1.0","556115","feedback","stage2","","","","Exposure","guapzdtayb","","","","","","","","","","","","","","","","","","",""
"3213","
      <div class=""trial-box stage2-trial"">
        <div class=""alien-speaker"">
          <img src=""images/norl_1.png"" class=""alien-small"" alt=""norl_1.png"">
          <span class=""species-label norl-label"">Norl</span>
        </div>
        <div class=""word-display"">maqubnup</div>
        <img src=""images/maqub_plur.png"" class=""stim-image"" alt=""maqub_plur.png"">
      </div>","0","html-button-response","164","2.1.0","559329","passive_exposure","stage2","maqub","true","nup","Exposure","guapzdtayb","","","","","","Norl","","","","","","","","","","","","",""
"2531","
      <div class=""trial-box stage2-trial"">
        <div class=""alien-speaker"">
          <img src=""images/gulu_2.png"" class=""alien-small"" alt=""gulu_2.png"">
          <span class=""species-label gulu-label"">Gulu</span>
        </div>
        <div class=""word-display"">neseldup</div>
        <img src=""images/nesel_plur.png"" class=""stim-image"" alt=""nesel_plur.png"">
      </div>","0","html-button-response","165","2.1.0","561860","passive_exposure","stage2","nesel","true","dup","Exposure","guapzdtayb","","","","","","Gulu","","","","","","","","","","","","",""
"2013","
      <div class=""trial-box stage2-trial"">
        <div class=""alien-speaker"">
          <img src=""images/gulu_2.png"" class=""alien-small"" alt=""gulu_2.png"">
          <span class=""species-label gulu-label"">Gulu</span>
        </div>
        <div class=""word-display"">wumos</div>
        <img src=""images/wumos_sing.png"" class=""stim-image"" alt=""wumos_sing.png"">
      </div>","0","html-button-response","166","2.1.0","563874","passive_exposure","stage2","wumos","false","null","Exposure","guapzdtayb","","","","","","Gulu","","","","","","","","","","","","",""
"2975","
      <div class=""trial-box stage2-trial"">
        <div class=""alien-speaker"">
          <img src=""images/norl_1.png"" class=""alien-small"" alt=""norl_1.png"">
          <span class=""species-label norl-label"">Norl</span>
        </div>
        <div class=""word-display"">firot</div>
        <img src=""images/firot_sing.png"" class=""stim-image"" alt=""firot_sing.png"">
      </div>","0","html-button-response","167","2.1.0","566850","passive_exposure","stage2","firot","false","null","Exposure","guapzdtayb","","","","","","Norl","","","","","","","","","","","","",""
"2384","
      <div class=""trial-box stage2-trial"">
        <div class=""alien-speaker"">
          <img src=""images/gulu_4.png"" class=""alien-small"" alt=""gulu_4.png"">
          <span class=""species-label gulu-label"">Gulu</span>
        </div>
        <img src=""images/wumos_sing.png"" class=""stim-image"" alt=""wumos_sing.png"">
        <p class=""instr-text"">Which word did the Gulu use?</p>
      </div>","0","html-button-response","168","2.1.0","569235","forced_choice","stage2","wumos","false","","Exposure","guapzdtayb","wumos","womus","0","true","45","Gulu","","","","","","","","","","","","",""
"900","
        <div class=""trial-box feedback-box feedback-correct"">
          <p>✓ Correct!</p>
          <p>The correct answer was: <strong>wumos</strong></p>
        </div>","0","html-button-response","169","2.1.0","570136","feedback","stage2","","","","Exposure","guapzdtayb","","","","","","","","","","","","","","","","","","",""
"3070","
      <div class=""trial-box stage2-trial"">
        <div class=""alien-speaker"">
          <img src=""images/gulu_5.png"" class=""alien-small"" alt=""gulu_5.png"">
          <span class=""species-label gulu-label"">Gulu</span>
        </div>
        <img src=""images/nesel_plur.png"" class=""stim-image"" alt=""nesel_plur.png"">
        <p class=""instr-text"">Which word did the Gulu use?</p>
      </div>","1","html-button-response","170","2.1.0","573207","forced_choice","stage2","nesel","true","","Exposure","guapzdtayb","neseldup","nelesdup","1","true","46","Gulu","","","","","","","","","","","","",""
"858","
        <div class=""trial-box feedback-box feedback-correct"">
          <p>✓ Correct!</p>
          <p>The correct answer was: <strong>neseldup</strong></p>
        </div>","0","html-button-response","171","2.1.0","574066","feedback","stage2","","","","Exposure","guapzdtayb","","","","","","","","","","","","","","","","","","",""
"3177","
      <div class=""trial-box stage2-trial"">
        <div class=""alien-speaker"">
          <img src=""images/norl_3.png"" class=""alien-small"" alt=""norl_3.png"">
          <span class=""species-label norl-label"">Norl</span>
        </div>
        <img src=""images/maqub_plur.png"" class=""stim-image"" alt=""maqub_plur.png"">
        <p class=""instr-text"">Which word did the Norl use?</p>
      </div>","1","html-button-response","172","2.1.0","577244","forced_choice","stage2","maqub","true","","Exposure","guapzdtayb","maqubnup","mabuqnup","1","true","47","Norl","","","","","","","","","","","","",""
"833","
        <div class=""trial-box feedback-box feedback-correct"">
          <p>✓ Correct!</p>
          <p>The correct answer was: <strong>maqubnup</strong></p>
        </div>","0","html-button-response","173","2.1.0","578077","feedback","stage2","","","","Exposure","guapzdtayb","","","","","","","","","","","","","","","","","","",""
"1488","
      <div class=""trial-box stage2-trial"">
        <div class=""alien-speaker"">
          <img src=""images/norl_5.png"" class=""alien-small"" alt=""norl_5.png"">
          <span class=""species-label norl-label"">Norl</span>
        </div>
        <img src=""images/firot_sing.png"" class=""stim-image"" alt=""firot_sing.png"">
        <p class=""instr-text"">Which word did the Norl use?</p>
      </div>","0","html-button-response","174","2.1.0","579568","forced_choice","stage2","firot","false","","Exposure","guapzdtayb","firot","fitor","0","true","48","Norl","","","","","","","","","","","","",""
"804","
        <div class=""trial-box feedback-box feedback-correct"">
          <p>✓ Correct!</p>
          <p>The correct answer was: <strong>firot</strong></p>
        </div>","0","html-button-response","175","2.1.0","580372","feedback","stage2","","","","Exposure","guapzdtayb","","","","","","","","","","","","","","","","","","",""
"1999","
      <div class=""trial-box stage2-trial"">
        <div class=""alien-speaker"">
          <img src=""images/norl_1.png"" class=""alien-small"" alt=""norl_1.png"">
          <span class=""species-label norl-label"">Norl</span>
        </div>
        <div class=""word-display"">laniz</div>
        <img src=""images/laniz_sing.png"" class=""stim-image"" alt=""laniz_sing.png"">
      </div>","0","html-button-response","176","2.1.0","582372","passive_exposure","stage2","laniz","false","null","Exposure","guapzdtayb","","","","","","Norl","","","","","","","","","","","","",""
"2835","
      <div class=""trial-box stage2-trial"">
        <div class=""alien-speaker"">
          <img src=""images/gulu_2.png"" class=""alien-small"" alt=""gulu_2.png"">
          <span class=""species-label gulu-label"">Gulu</span>
        </div>
        <div class=""word-display"">tugan</div>
        <img src=""images/tugan_sing.png"" class=""stim-image"" alt=""tugan_sing.png"">
      </div>","0","html-button-response","177","2.1.0","585208","passive_exposure","stage2","tugan","false","null","Exposure","guapzdtayb","","","","","","Gulu","","","","","","","","","","","","",""
"1667","
      <div class=""trial-box stage2-trial"">
        <div class=""alien-speaker"">
          <img src=""images/gulu_2.png"" class=""alien-small"" alt=""gulu_2.png"">
          <span class=""species-label gulu-label"">Gulu</span>
        </div>
        <img src=""images/tugan_sing.png"" class=""stim-image"" alt=""tugan_sing.png"">
        <p class=""instr-text"">Which word did the Gulu use?</p>
      </div>","1","html-button-response","178","2.1.0","586876","forced_choice","stage2","tugan","false","","Exposure","guapzdtayb","tugan","tagun","1","true","49","Gulu","","","","","","","","","","","","",""
"717","
        <div class=""trial-box feedback-box feedback-correct"">
          <p>✓ Correct!</p>
          <p>The correct answer was: <strong>tugan</strong></p>
        </div>","0","html-button-response","179","2.1.0","587593","feedback","stage2","","","","Exposure","guapzdtayb","","","","","","","","","","","","","","","","","","",""
"1864","
      <div class=""trial-box stage2-trial"">
        <div class=""alien-speaker"">
          <img src=""images/norl_2.png"" class=""alien-small"" alt=""norl_2.png"">
          <span class=""species-label norl-label"">Norl</span>
        </div>
        <img src=""images/laniz_sing.png"" class=""stim-image"" alt=""laniz_sing.png"">
        <p class=""instr-text"">Which word did the Norl use?</p>
      </div>","0","html-button-response","180","2.1.0","589458","forced_choice","stage2","laniz","false","","Exposure","guapzdtayb","laniz","lazin","0","true","50","Norl","","","","","","","","","","","","",""
"716","
        <div class=""trial-box feedback-box feedback-correct"">
          <p>✓ Correct!</p>
          <p>The correct answer was: <strong>laniz</strong></p>
        </div>","0","html-button-response","181","2.1.0","590175","feedback","stage2","","","","Exposure","guapzdtayb","","","","","","","","","","","","","","","","","","",""
"13695","
    <div class=""instr-box"">
      <h2>Test</h2>
      <p>You have finished learning the language! Now we will test what you have learned.</p>
      <p>There are two short tasks. <strong>No feedback</strong> will be given this time, just answer as best you can.</p>
      <p>Some of the words may be ones you have not seen before. That is fine, use your best judgment.</p>
      <p>Click <strong>Continue</strong> to start the test.</p>
    </div>","0","html-button-response","182","2.1.0","603872","instructions_test","","","","","Exposure","guapzdtayb","","","","","","","","","","","","","","","","","","",""
"6413","
      <div class=""trial-box"">
        <div class=""alien-speaker"">
          <img src=""images/gulu_1.png"" class=""alien-small"" alt=""gulu_1.png"">
          <span class=""species-label gulu-label"">Gulu</span>
        </div>
        <img src=""images/jemulok_plur.png"" class=""stim-image"" alt=""jemulok_plur.png"">
        <p class=""instr-text"">Which word would this Gulu use?</p>
      </div>","0","html-button-response","183","2.1.0","610286","suffix_selection","","jemulok","","","Exposure","guapzdtayb","","","0","true","","Gulu","","","false","1","0","1","dup","dup","0","","","",""
"5891","
      <div class=""trial-box"">
        <div class=""alien-speaker"">
          <img src=""images/gulu_1.png"" class=""alien-small"" alt=""gulu_1.png"">
          <span class=""species-label gulu-label"">Gulu</span>
        </div>
        <img src=""images/falon_plur.png"" class=""stim-image"" alt=""falon_plur.png"">
        <p class=""instr-text"">Which word would this Gulu use?</p>
      </div>","0","html-button-response","184","2.1.0","616178","suffix_selection","","falon","","","Exposure","guapzdtayb","","","1","false","","Gulu","","","false","1","1","0","dup","nup","1","","","",""
"7180","
      <div class=""trial-box"">
        <div class=""alien-speaker"">
          <img src=""images/norl_1.png"" class=""alien-small"" alt=""norl_1.png"">
          <span class=""species-label norl-label"">Norl</span>
        </div>
        <div class=""novel-word-pair"">
          <div class=""novel-word-item"">
            <img src=""images/helun_sing.png"" class=""stim-image"" alt=""helun_sing.png"">
            <p class=""word-display"">helun</p>
          </div>
          <div class=""novel-word-item"">
            <img src=""images/helun_plur.png"" class=""stim-image"" alt=""helun_plur.png"">
            <p class=""word-display novel-unknown"">?</p>
          </div>
        </div>
        <p class=""instr-text"">Which word would this Norl use?</p>
      </div>","0","html-button-response","185","2.1.0","623358","suffix_selection","","helun","","","Exposure","guapzdtayb","","","0","true","","Norl","","","true","1","1","0","nup","nup","1","","","",""
"3056","
      <div class=""trial-box"">
        <div class=""alien-speaker"">
          <img src=""images/gulu_1.png"" class=""alien-small"" alt=""gulu_1.png"">
          <span class=""species-label gulu-label"">Gulu</span>
        </div>
        <img src=""images/takoles_plur.png"" class=""stim-image"" alt=""takoles_plur.png"">
        <p class=""instr-text"">Which word would this Gulu use?</p>
      </div>","0","html-button-response","186","2.1.0","626416","suffix_selection","","takoles","","","Exposure","guapzdtayb","","","0","true","","Gulu","","","false","0","0","1","dup","dup","0","","","",""
"4550","
      <div class=""trial-box"">
        <div class=""alien-speaker"">
          <img src=""images/gulu_1.png"" class=""alien-small"" alt=""gulu_1.png"">
          <span class=""species-label gulu-label"">Gulu</span>
        </div>
        <img src=""images/jemulok_plur.png"" class=""stim-image"" alt=""jemulok_plur.png"">
        <p class=""instr-text"">Which word would this Gulu use?</p>
      </div>","0","html-button-response","187","2.1.0","630967","suffix_selection","","jemulok","","","Exposure","guapzdtayb","","","0","true","","Gulu","","","false","0","0","1","dup","dup","0","","","",""
"3733","
      <div class=""trial-box"">
        <div class=""alien-speaker"">
          <img src=""images/gulu_1.png"" class=""alien-small"" alt=""gulu_1.png"">
          <span class=""species-label gulu-label"">Gulu</span>
        </div>
        <img src=""images/tugan_plur.png"" class=""stim-image"" alt=""tugan_plur.png"">
        <p class=""instr-text"">Which word would this Gulu use?</p>
      </div>","0","html-button-response","188","2.1.0","634700","suffix_selection","","tugan","","","Exposure","guapzdtayb","","","1","false","","Gulu","","","false","1","1","0","dup","nup","1","","","",""
"4577","
      <div class=""trial-box"">
        <div class=""alien-speaker"">
          <img src=""images/norl_1.png"" class=""alien-small"" alt=""norl_1.png"">
          <span class=""species-label norl-label"">Norl</span>
        </div>
        <img src=""images/maqub_plur.png"" class=""stim-image"" alt=""maqub_plur.png"">
        <p class=""instr-text"">Which word would this Norl use?</p>
      </div>","1","html-button-response","189","2.1.0","639278","suffix_selection","","maqub","","","Exposure","guapzdtayb","","","1","true","","Norl","","","false","1","0","1","nup","nup","1","","","",""
"5273","
      <div class=""trial-box"">
        <div class=""alien-speaker"">
          <img src=""images/norl_1.png"" class=""alien-small"" alt=""norl_1.png"">
          <span class=""species-label norl-label"">Norl</span>
        </div>
        <div class=""novel-word-pair"">
          <div class=""novel-word-item"">
            <img src=""images/mocil_sing.png"" class=""stim-image"" alt=""mocil_sing.png"">
            <p class=""word-display"">mocil</p>
          </div>
          <div class=""novel-word-item"">
            <img src=""images/mocil_plur.png"" class=""stim-image"" alt=""mocil_plur.png"">
            <p class=""word-display novel-unknown"">?</p>
          </div>
        </div>
        <p class=""instr-text"">Which word would this Norl use?</p>
      </div>","0","html-button-response","190","2.1.0","644551","suffix_selection","","mocil","","","Exposure","guapzdtayb","","","1","false","","Norl","","","true","0","0","1","nup","dup","0","","","",""
"5510","
      <div class=""trial-box"">
        <div class=""alien-speaker"">
          <img src=""images/norl_1.png"" class=""alien-small"" alt=""norl_1.png"">
          <span class=""species-label norl-label"">Norl</span>
        </div>
        <img src=""images/wumos_plur.png"" class=""stim-image"" alt=""wumos_plur.png"">
        <p class=""instr-text"">Which word would this Norl use?</p>
      </div>","0","html-button-response","191","2.1.0","650062","suffix_selection","","wumos","","","Exposure","guapzdtayb","","","1","false","","Norl","","","false","0","1","0","dup","nup","1","","","",""
"38151","
      <div class=""trial-box"">
        <div class=""alien-speaker"">
          <img src=""images/gulu_1.png"" class=""alien-small"" alt=""gulu_1.png"">
          <span class=""species-label gulu-label"">Gulu</span>
        </div>
        <img src=""images/sehilod_plur.png"" class=""stim-image"" alt=""sehilod_plur.png"">
        <p class=""instr-text"">Which word would this Gulu use?</p>
      </div>","0","html-button-response","192","2.1.0","688215","suffix_selection","","sehilod","","","Exposure","guapzdtayb","","","0","true","","Gulu","","","false","0","0","1","dup","dup","0","","","",""
"2975","
      <div class=""trial-box"">
        <div class=""alien-speaker"">
          <img src=""images/gulu_1.png"" class=""alien-small"" alt=""gulu_1.png"">
          <span class=""species-label gulu-label"">Gulu</span>
        </div>
        <img src=""images/wumos_plur.png"" class=""stim-image"" alt=""wumos_plur.png"">
        <p class=""instr-text"">Which word would this Gulu use?</p>
      </div>","0","html-button-response","193","2.1.0","691191","suffix_selection","","wumos","","","Exposure","guapzdtayb","","","0","true","","Gulu","","","false","1","0","1","dup","dup","0","","","",""
"4130","
      <div class=""trial-box"">
        <div class=""alien-speaker"">
          <img src=""images/norl_1.png"" class=""alien-small"" alt=""norl_1.png"">
          <span class=""species-label norl-label"">Norl</span>
        </div>
        <div class=""novel-word-pair"">
          <div class=""novel-word-item"">
            <img src=""images/gitab_sing.png"" class=""stim-image"" alt=""gitab_sing.png"">
            <p class=""word-display"">gitab</p>
          </div>
          <div class=""novel-word-item"">
            <img src=""images/gitab_plur.png"" class=""stim-image"" alt=""gitab_plur.png"">
            <p class=""word-display novel-unknown"">?</p>
          </div>
        </div>
        <p class=""instr-text"">Which word would this Norl use?</p>
      </div>","1","html-button-response","194","2.1.0","695322","suffix_selection","","gitab","","","Exposure","guapzdtayb","","","0","false","","Norl","","","true","1","1","0","nup","dup","0","","","",""
"2345","
      <div class=""trial-box"">
        <div class=""alien-speaker"">
          <img src=""images/gulu_1.png"" class=""alien-small"" alt=""gulu_1.png"">
          <span class=""species-label gulu-label"">Gulu</span>
        </div>
        <img src=""images/wumos_plur.png"" class=""stim-image"" alt=""wumos_plur.png"">
        <p class=""instr-text"">Which word would this Gulu use?</p>
      </div>","0","html-button-response","195","2.1.0","697669","suffix_selection","","wumos","","","Exposure","guapzdtayb","","","0","true","","Gulu","","","false","0","0","1","dup","dup","0","","","",""
"4216","
      <div class=""trial-box"">
        <div class=""alien-speaker"">
          <img src=""images/gulu_1.png"" class=""alien-small"" alt=""gulu_1.png"">
          <span class=""species-label gulu-label"">Gulu</span>
        </div>
        <img src=""images/wukin_plur.png"" class=""stim-image"" alt=""wukin_plur.png"">
        <p class=""instr-text"">Which word would this Gulu use?</p>
      </div>","0","html-button-response","196","2.1.0","701885","suffix_selection","","wukin","","","Exposure","guapzdtayb","","","0","true","","Gulu","","","false","1","0","1","dup","dup","0","","","",""
"2102","
      <div class=""trial-box"">
        <div class=""alien-speaker"">
          <img src=""images/gulu_1.png"" class=""alien-small"" alt=""gulu_1.png"">
          <span class=""species-label gulu-label"">Gulu</span>
        </div>
        <img src=""images/firot_plur.png"" class=""stim-image"" alt=""firot_plur.png"">
        <p class=""instr-text"">Which word would this Gulu use?</p>
      </div>","0","html-button-response","197","2.1.0","703988","suffix_selection","","firot","","","Exposure","guapzdtayb","","","0","true","","Gulu","","","false","1","0","1","dup","dup","0","","","",""
"6096","
      <div class=""trial-box"">
        <div class=""alien-speaker"">
          <img src=""images/norl_1.png"" class=""alien-small"" alt=""norl_1.png"">
          <span class=""species-label norl-label"">Norl</span>
        </div>
        <img src=""images/sehilod_plur.png"" class=""stim-image"" alt=""sehilod_plur.png"">
        <p class=""instr-text"">Which word would this Norl use?</p>
      </div>","0","html-button-response","198","2.1.0","710085","suffix_selection","","sehilod","","","Exposure","guapzdtayb","","","0","true","","Norl","","","false","0","1","0","nup","nup","1","","","",""
"11371","
      <div class=""trial-box"">
        <div class=""alien-speaker"">
          <img src=""images/gulu_1.png"" class=""alien-small"" alt=""gulu_1.png"">
          <span class=""species-label gulu-label"">Gulu</span>
        </div>
        <img src=""images/gequzis_plur.png"" class=""stim-image"" alt=""gequzis_plur.png"">
        <p class=""instr-text"">Which word would this Gulu use?</p>
      </div>","1","html-button-response","199","2.1.0","721458","suffix_selection","","gequzis","","","Exposure","guapzdtayb","","","1","true","","Gulu","","","false","1","1","0","dup","dup","0","","","",""
"4517","
      <div class=""trial-box"">
        <div class=""alien-speaker"">
          <img src=""images/gulu_1.png"" class=""alien-small"" alt=""gulu_1.png"">
          <span class=""species-label gulu-label"">Gulu</span>
        </div>
        <div class=""novel-word-pair"">
          <div class=""novel-word-item"">
            <img src=""images/mocil_sing.png"" class=""stim-image"" alt=""mocil_sing.png"">
            <p class=""word-display"">mocil</p>
          </div>
          <div class=""novel-word-item"">
            <img src=""images/mocil_plur.png"" class=""stim-image"" alt=""mocil_plur.png"">
            <p class=""word-display novel-unknown"">?</p>
          </div>
        </div>
        <p class=""instr-text"">Which word would this Gulu use?</p>
      </div>","0","html-button-response","200","2.1.0","725976","suffix_selection","","mocil","","","Exposure","guapzdtayb","","","0","true","","Gulu","","","true","0","0","1","dup","dup","0","","","",""
"4872","
      <div class=""trial-box"">
        <div class=""alien-speaker"">
          <img src=""images/norl_1.png"" class=""alien-small"" alt=""norl_1.png"">
          <span class=""species-label norl-label"">Norl</span>
        </div>
        <img src=""images/falon_plur.png"" class=""stim-image"" alt=""falon_plur.png"">
        <p class=""instr-text"">Which word would this Norl use?</p>
      </div>","0","html-button-response","201","2.1.0","730849","suffix_selection","","falon","","","Exposure","guapzdtayb","","","0","true","","Norl","","","false","0","1","0","nup","nup","1","","","",""
"2457","
      <div class=""trial-box"">
        <div class=""alien-speaker"">
          <img src=""images/norl_1.png"" class=""alien-small"" alt=""norl_1.png"">
          <span class=""species-label norl-label"">Norl</span>
        </div>
        <img src=""images/firot_plur.png"" class=""stim-image"" alt=""firot_plur.png"">
        <p class=""instr-text"">Which word would this Norl use?</p>
      </div>","0","html-button-response","202","2.1.0","733307","suffix_selection","","firot","","","Exposure","guapzdtayb","","","0","true","","Norl","","","false","1","1","0","nup","nup","1","","","",""
"4075","
      <div class=""trial-box"">
        <div class=""alien-speaker"">
          <img src=""images/gulu_1.png"" class=""alien-small"" alt=""gulu_1.png"">
          <span class=""species-label gulu-label"">Gulu</span>
        </div>
        <img src=""images/hiwen_plur.png"" class=""stim-image"" alt=""hiwen_plur.png"">
        <p class=""instr-text"">Which word would this Gulu use?</p>
      </div>","0","html-button-response","203","2.1.0","737382","suffix_selection","","hiwen","","","Exposure","guapzdtayb","","","0","true","","Gulu","","","false","1","0","1","dup","dup","0","","","",""
"2989","
      <div class=""trial-box"">
        <div class=""alien-speaker"">
          <img src=""images/norl_1.png"" class=""alien-small"" alt=""norl_1.png"">
          <span class=""species-label norl-label"">Norl</span>
        </div>
        <img src=""images/nesel_plur.png"" class=""stim-image"" alt=""nesel_plur.png"">
        <p class=""instr-text"">Which word would this Norl use?</p>
      </div>","0","html-button-response","204","2.1.0","740372","suffix_selection","","nesel","","","Exposure","guapzdtayb","","","1","false","","Norl","","","false","1","0","1","nup","dup","0","","","",""
"5911","
      <div class=""trial-box"">
        <div class=""alien-speaker"">
          <img src=""images/norl_1.png"" class=""alien-small"" alt=""norl_1.png"">
          <span class=""species-label norl-label"">Norl</span>
        </div>
        <img src=""images/laniz_plur.png"" class=""stim-image"" alt=""laniz_plur.png"">
        <p class=""instr-text"">Which word would this Norl use?</p>
      </div>","0","html-button-response","205","2.1.0","746283","suffix_selection","","laniz","","","Exposure","guapzdtayb","","","1","false","","Norl","","","false","0","0","1","nup","dup","0","","","",""
"3947","
      <div class=""trial-box"">
        <div class=""alien-speaker"">
          <img src=""images/gulu_1.png"" class=""alien-small"" alt=""gulu_1.png"">
          <span class=""species-label gulu-label"">Gulu</span>
        </div>
        <div class=""novel-word-pair"">
          <div class=""novel-word-item"">
            <img src=""images/timan_sing.png"" class=""stim-image"" alt=""timan_sing.png"">
            <p class=""word-display"">timan</p>
          </div>
          <div class=""novel-word-item"">
            <img src=""images/timan_plur.png"" class=""stim-image"" alt=""timan_plur.png"">
            <p class=""word-display novel-unknown"">?</p>
          </div>
        </div>
        <p class=""instr-text"">Which word would this Gulu use?</p>
      </div>","0","html-button-response","206","2.1.0","750231","suffix_selection","","timan","","","Exposure","guapzdtayb","","","1","false","","Gulu","","","true","1","1","0","dup","nup","1","","","",""
"6251","
      <div class=""trial-box"">
        <div class=""alien-speaker"">
          <img src=""images/gulu_1.png"" class=""alien-small"" alt=""gulu_1.png"">
          <span class=""species-label gulu-label"">Gulu</span>
        </div>
        <img src=""images/nuwik_plur.png"" class=""stim-image"" alt=""nuwik_plur.png"">
        <p class=""instr-text"">Which word would this Gulu use?</p>
      </div>","1","html-button-response","207","2.1.0","756483","suffix_selection","","nuwik","","","Exposure","guapzdtayb","","","1","true","","Gulu","","","false","1","1","0","dup","dup","0","","","",""
"7092","
      <div class=""trial-box"">
        <div class=""alien-speaker"">
          <img src=""images/norl_1.png"" class=""alien-small"" alt=""norl_1.png"">
          <span class=""species-label norl-label"">Norl</span>
        </div>
        <img src=""images/jemulok_plur.png"" class=""stim-image"" alt=""jemulok_plur.png"">
        <p class=""instr-text"">Which word would this Norl use?</p>
      </div>","0","html-button-response","208","2.1.0","763576","suffix_selection","","jemulok","","","Exposure","guapzdtayb","","","1","false","","Norl","","","false","0","1","0","dup","nup","1","","","",""
"5956","
      <div class=""trial-box"">
        <div class=""alien-speaker"">
          <img src=""images/norl_1.png"" class=""alien-small"" alt=""norl_1.png"">
          <span class=""species-label norl-label"">Norl</span>
        </div>
        <div class=""novel-word-pair"">
          <div class=""novel-word-item"">
